File: bend_scan_45p11_45p28.csv
Frequency (cm-1),Normalized YbOH Absorption
17345.1,0.00185624
17345.1,0.00351163
17345.1,0.00530436
17345.1,0.00400757
17345.1,0.000782109
17345.1,-0.000987227
17345.1,0.0031399
17345.1,0.000697893
17345.1,0.0023666
17345.1,0.00647086
17345.118,0.00282885
17345.1,0.000653771
17345.1,0.00612741
17345.1,0.00116588
17345.1,0.000500004
17345.1,0.00530897
17345.1,0.000739387
17345.1,0.00198394
17345.1,0.00408741
17345.1,0.00549234
17345.1,0.00188461
17345.121,0.00293195
17345.1,0.00484522
17345.1,0.00651552
17345.1,0.0011225
17345.122,0.00603561
17345.1,0.00265834
17345.1,0.000849259
17345.1,0.00864662
17345.1,0.0103664
17345.1,0.00482665
17345.1,0.00448632
17345.1,0.00582036
17345.1,0.00102327
17345.1,0.00903511
17345.1,0.00551109
17345.125,0.00619986
17345.1,0.00572271
17345.1,0.00222653
17345.1,-0.000579738
17345.126,0.00302366
17345.1,0.00468251
17345.1,0.00348827
17345.1,0.006306
17345.1,0.0018276
17345.1,0.00671608
17345.1,0.00655585
17345.1,0.00447454
17345.1,0.00456559
17345.1,0.00433607
17345.1,0.00369594
17345.129,0.00947781
17345.1,0.00425971
17345.1,0.00273887
17345.1,0.00375801
17345.1,0.0055875
17345.1,0.00212469
17345.1,0.000534207
17345.1,0.00422928
17345.1,0.000282977
17345.1,0.00658268
17345.1,0.00169164
17345.1,0.00811953
17345.1,0.00609071
17345.1,0.00822871
17345.1,-0.00082713
17345.133,0.00749703
17345.1,0.00866015
17345.1,0.00532768
17345.1,0.00504822
17345.1,0.00732982
17345.1,0.00446598
17345.1,0.00491247
17345.1,0.00356938
17345.1,0.00569049
17345.1,0.00316758
17345.1,0.0075625
17345.1,0.00125852
17345.1,0.00602445
17345.1,0.00577965
17345.1,0.00430597
17345.137,0.00270208
17345.1,0.00300456
17345.1,0.00254927
17345.1,0.00380313
17345.1,0.00354467
17345.1,0.00402707
17345.1,0.00274698
17345.1,0.0043076
17345.1,0.00204921
17345.1,0.00476652
17345.1,0.00365221
17345.1,0.0035266
17345.1,0.00509635
17345.1,0.00626873
17345.1,0.00481982
17345.1,0.00501714
17345.1,0.00402251
17345.1,0.00468308
17345.1,0.0047644
17345.1,0.00213084
17345.1,0.00405562
17345.1,0.00500996
17345.1,0.00116482
17345.1,0.0060572
17345.1,0.00326612
17345.1,0.00746627
17345.1,0.00517097
17345.1,0.010173
17345.1,0.00459661
17345.1,0.00646965
17345.145,0.00574638
17345.1,0.00105651
17345.1,0.00500879
17345.1,0.00459505
17345.146,0.0089931
17345.1,0.00248364
17345.1,0.00502451
17345.1,0.00133391
17345.1,0.00531691
17345.1,0.00493149
17345.1,0.00592371
17345.1,0.003128
17345.1,0.00416548
17345.1,0.0038947
17345.145,0.00378207
17345.1,0.00408336
17345.1,0.00222384
17345.1,0.00536481
17345.1,0.00480841
17345.1,0.00596574
17345.1,0.00403433
17345.1,0.00433802
17345.1,0.00372613
17345.1,0.00304802
17345.1,0.00357792
17345.1,0.00404526
17345.1,0.00439847
17345.1,0.00502536
17345.1,0.00429567
17345.1,0.00418694
17345.1,0.00268576
17345.1,0.0036291
17345.1,0.00254741
17345.2,0.00431243
17345.2,0.00152084
17345.2,0.00288968
17345.2,0.00280482
17345.2,0.00405647
17345.2,0.0027601
17345.2,0.00339525
17345.152,0.00294424
17345.2,0.00449375
17345.2,0.00261715
17345.2,0.00183369
17345.153,0.00219061
17345.2,0.00481355
17345.2,0.0018308
17345.2,0.0039364
17345.154,0.002184
17345.2,0.00328896
17345.2,0.00288232
17345.2,0.00435384
17345.2,0.00274024
17345.2,0.00280035
17345.2,0.00422349
17345.2,0.00394205
17345.2,0.00510817
17345.2,0.00200905
17345.2,0.0032273
17345.157,0.00300147
17345.2,0.00314481
17345.2,0.0027871
17345.2,0.00353286
17345.158,0.00472592
17345.2,0.00307889
17345.2,0.00300341
17345.2,0.00441858
17345.2,0.00314052
17345.2,0.00701067
17345.2,0.00292986
17345.16,0.00181741
17345.2,0.00342829
17345.2,0.00258283
17345.2,0.00325949
17345.2,0.00396115
17345.2,0.00355209
17345.2,0.00159819
17345.2,0.0022585
17345.2,0.00589919
17345.2,0.00187552
17345.2,0.00234918
17345.2,0.00266707
17345.2,0.00248386
17345.2,0.00402285
17345.2,0.00297964
17345.2,0.00241773
17345.2,0.00555336
17345.2,0.00299949
17345.2,0.00441341
17345.2,0.00404346
17345.2,0.00342781
17345.2,0.00531959
17345.2,0.00285373
17345.2,0.00301202
17345.2,0.00435334
17345.2,0.00269819
17345.2,0.00320927
17345.2,0.00369784
17345.2,0.00278298
17345.2,0.00529559
17345.2,0.00359041
17345.2,0.00356615
17345.2,0.00315147
17345.2,0.00359453
17345.2,0.00219715
17345.2,0.00271384
17345.2,0.00392273
17345.2,0.00244035
17345.17,0.0037944
17345.2,0.00265194
17345.2,0.00319196
17345.2,0.00187986
17345.2,0.00177906
17345.2,0.00273708
17345.2,0.00192936
17345.172,0.00244939
17345.2,0.00175016
17345.2,0.00293139
17345.2,0.0034879
17345.173,0.00259636
17345.2,0.00251862
17345.2,0.00502204
17345.2,0.00198554
17345.2,0.00421783
17345.2,0.0028088
17345.2,0.00307106
17345.2,0.00110542
17345.2,0.00234667
17345.2,0.00216517
17345.2,0.00255753
17345.2,0.00294028
17345.171,0.00422552
17345.2,0.00282822
17345.2,0.00311185
17345.2,0.0040963
17345.2,0.0042357
17345.2,0.00247316
17345.2,0.00508453
17345.2,0.00590005
17345.2,0.0058749
17345.2,0.0039446
17345.2,0.00265071
17345.174,0.00382112
17345.2,0.00491875
17345.2,0.00233298
17345.2,0.0035665
17345.2,0.00381416
17345.2,0.00530189
17345.2,0.00372842
17345.2,0.00321174
17345.2,0.00279026
17345.2,0.00313438
17345.2,0.00210234
17345.2,0.00262178
17345.2,0.00257998
17345.2,0.00380682
17345.2,0.00227639
17345.178,0.00211835
17345.2,0.00299763
17345.2,0.00226923
17345.2,0.00453105
17345.2,0.00491128
17345.2,0.00245263
17345.2,0.00500707
17345.2,0.00364197
17345.2,0.00328575
17345.2,0.00368946
17345.2,0.00310637
17345.2,0.00303925
17345.2,0.00357858
17345.2,0.00250623
17345.2,0.0046278
17345.182,0.00197642
17345.2,0.00189513
17345.2,0.00238135
17345.2,0.00317223
17345.183,0.00287286
17345.2,0.00222878
17345.2,0.00285087
17345.2,0.00320524
17345.2,0.00304837
17345.2,0.00219001
17345.2,0.00221536
17345.185,0.00133924
17345.2,0.00211094
17345.2,0.00117601
17345.2,0.0038122
17345.186,0.00217126
17345.2,0.00418595
17345.2,0.00237538
17345.2,0.00309551
17345.2,0.00211569
17345.2,0.00255649
17345.2,0.00286542
17345.2,0.00318847
17345.2,0.00305045
17345.2,0.00297495
17345.2,0.00315271
17345.189,0.000650289
17345.2,0.00401037
17345.2,0.00249234
17345.2,0.00172038
17345.19,0.00315565
17345.2,0.00331407
17345.2,0.00151803
17345.2,0.00278549
17345.2,0.00179186
17345.2,0.00401879
17345.2,0.00424578
17345.2,0.00267687
17345.2,0.00277763
17345.2,0.00255959
17345.2,0.00431299
17345.193,0.00370998
17345.2,0.00277842
17345.2,0.00213224
17345.2,0.0027951
17345.194,0.00269722
17345.2,0.00126111
17345.2,0.00242471
17345.2,0.0032189
17345.2,0.0019444
17345.2,0.00277415
17345.2,0.00189472
17345.2,0.00257708
17345.2,0.00207956
17345.2,0.00222134
17345.2,0.00197713
17345.2,0.00172876
17345.2,0.000643997
17345.2,0.00356728
17345.2,0.00111295
17345.198,0.00469848
17345.2,0.000850907
17345.2,0.00156876
17345.2,0.00329093
17345.2,0.00162997
17345.2,0.00209098
17345.2,0.00325649
17345.2,0.00399557
17345.2,0.002767
17345.2,0.00242406
17345.2,0.00243052
17345.2,0.00119511
17345.2,0.00244337
17345.2,0.00254787
17345.2,0.00268198
17345.2,0.00182956
17345.2,0.00201512
17345.2,0.00171517
17345.2,0.00265565
17345.2,0.00113532
17345.2,0.00263088
17345.204,0.00310573
17345.2,0.00190837
17345.2,0.0010779
17345.2,0.00101464
17345.2,0.00131271
17345.2,0.00226818
17345.2,0.00221809
17345.2,0.0020182
17345.2,0.00212063
17345.2,0.0021037
17345.2,0.00309293
17345.207,0.00349067
17345.2,0.00242673
17345.2,0.00243242
17345.2,0.002661
17345.2,0.00433624
17345.2,0.00152845
17345.2,0.00231889
17345.2,0.00334489
17345.2,0.00175475
17345.2,0.00202359
17345.2,0.0019513
17345.2,0.00292423
17345.2,0.00422329
17345.2,0.00313014
17345.2,0.00659108
17345.211,0.00263798
17345.2,0.00426333
17345.2,0.00269666
17345.2,0.00453244
17345.2,0.0031739
17345.2,0.00182868
17345.2,0.00322056
17345.2,-0.00131277
17345.2,0.00238724
17345.2,0.001823
17345.2,0.00233671
17345.214,0.0029893
17345.2,0.00257285
17345.2,0.00306113
17345.2,0.00491268
17345.2,0.00312024
17345.2,0.00501946
17345.2,0.00331161
17345.2,0.00203629
17345.2,0.00241467
17345.2,0.00325907
17345.2,0.00675051
17345.2,0.00215175
17345.2,0.00266286
17345.2,0.00263005
17345.2,0.0010298
17345.2,0.00314351
17345.2,0.00140204
17345.2,0.00324947
17345.2,0.00164649
17345.2,0.00151556
17345.2,0.00188094
17345.2,0.00363561
17345.2,0.00304623
17345.2,0.00332796
17345.2,0.00216788
17345.2,0.00335674
17345.2,0.00208162
17345.2,0.00221501
17345.2,0.00189446
17345.2,0.00259519
17345.2,0.002829
17345.2,0.0022823
17345.2,0.002061
17345.2,0.0016776
17345.223,0.00303618
17345.2,0.00265302
17345.2,0.00142531
17345.2,0.00169903
17345.2,0.00150406
17345.2,0.0025447
17345.2,0.00186609
17345.2,0.00190656
17345.2,0.0022922
17345.2,0.00297949
17345.2,0.00122186
17345.226,0.00253469
17345.2,0.00188659
17345.2,0.00172063
17345.2,0.00277278
17345.2,0.00229444
17345.2,0.000775952
17345.2,0.000762165
17345.2,0.00184023
17345.228,0.00284292
17345.2,0.00221961
17345.2,0.00206777
17345.2,0.00154506
17345.2,0.00230202
17345.2,0.00293155
17345.2,0.00371476
17345.2,0.00196365
17345.2,0.0039022
17345.2,0.0041791
17345.2,0.00183749
17345.231,0.00300728
17345.2,0.00289721
17345.2,0.00160315
17345.2,0.00332193
17345.2,0.00271577
17345.2,0.00227494
17345.2,0.00113243
17345.2,0.0032748
17345.2,0.00354442
17345.2,0.00214131
17345.2,0.00219183
17345.2,0.00164139
17345.2,0.00230073
17345.2,0.00289104
17345.2,0.00316256
17345.2,0.00161042
17345.2,0.00256627
17345.2,0.00213371
17345.2,0.00275575
17345.2,0.00138624
17345.2,0.00246665
17345.2,0.00246491
17345.2,0.00324595
17345.2,0.00233181
17345.2,0.0024143
17345.2,0.000969408
17345.2,0.0019037
17345.2,0.0021252
17345.2,0.00105407
17345.2,0.00146043
17345.2,0.00185893
17345.2,0.00246608
17345.2,0.000421436
17345.2,0.00119474
17345.2,0.00210523
17345.2,0.00333793
17345.2,0.00355728
17345.2,0.00286014
17345.2,0.00243396
17345.2,0.00194718
17345.233,0.00194059
17345.2,0.00210172
17345.2,0.00168871
17345.2,0.00117488
17345.2,0.00174169
17345.2,0.0029222
17345.2,0.00133284
17345.2,0.00303081
17345.2,0.000450796
17345.2,0.00333891
17345.2,0.0018736
17345.236,0.00238983
17345.2,0.0045323
17345.2,0.000358926
17345.2,0.00244404
17345.237,0.0018119
17345.2,0.00196589
17345.2,0.00292746
17345.2,0.00110516
17345.2,0.00242528
17345.2,0.00150542
17345.2,0.000189634
17345.2,0.00227519
17345.2,0.00196813
17345.2,0.00178031
17345.2,0.00387558
17345.24,0.00279174
17345.2,0.00258386
17345.2,0.0024982
17345.2,0.00327199
17345.241,0.00162163
17345.2,0.00324676
17345.2,0.00204985
17345.2,0.00272569
17345.2,0.00208096
17345.2,0.00126773
17345.2,0.00194753
17345.2,0.000301212
17345.2,0.00120404
17345.2,0.0023926
17345.2,0.00257303
17345.244,0.00243167
17345.2,0.00382228
17345.2,0.000807409
17345.2,0.00350172
17345.2,0.00159309
17345.2,0.00361483
17345.2,0.00110349
17345.2,0.00225596
17345.2,0.00163825
17345.2,0.000518884
17345.2,0.00323695
17345.2,0.00304276
17345.2,0.0040663
17345.2,0.00160367
17345.2,0.00220476
17345.248,0.00142442
17345.2,0.00283202
17345.2,0.00232675
17345.2,0.00196089
17345.249,0.000647428
17345.2,0.00464415
17345.2,0.00156631
17345.2,0.0032978
17345.2,0.00348815
17345.2,0.00190823
17345.2,0.000860253
17345.2,0.00322447
17345.2,0.0023006
17345.2,0.00267849
17345.2,0.00173911
17345.2,0.0052486
17345.2,0.000165715
17345.25,0.000386455
17345.3,0.00372364
17345.3,0.00207897
17345.3,0.0058712
17345.3,0.00169128
17345.3,0.003363
17345.3,0.00693962
17345.3,0.00200593
17345.3,0.00529908
17345.3,0.0048703
17345.3,0.0037276
17345.253,0.0046308
17345.3,0.00429116
17345.3,0.000925508
17345.3,0.00344058
17345.3,0.000300857
17345.3,0.00212885
17345.3,0.00375128
17345.3,0.00166699
17345.3,0.0047676
17345.3,0.00352995
17345.3,0.00318789
17345.3,0.00293436
17345.3,0.00154589
17345.3,0.00258256
17345.3,0.00307788
17345.257,0.00261666
17345.3,0.00269873
17345.3,0.00228567
17345.3,0.00232063
17345.258,0.00349587
17345.3,0.00271278
17345.3,0.00234438
17345.3,0.000762698
17345.3,0.00315907
17345.3,0.00305117
17345.3,0.00180974
17345.26,0.00443914
17345.3,0.0017747
17345.3,0.00199028
17345.3,0.00309091
17345.261,0.00230582
17345.3,0.00187721
17345.3,0.0018888
17345.3,0.00162651
17345.3,0.00226484
17345.3,0.00161394
17345.3,0.00284955
17345.3,0.00381588
17345.3,0.00137923
17345.3,0.00228936
17345.3,0.00267125
17345.264,0.00239015
17345.3,0.0013312
17345.3,0.00237019
17345.3,0.00312515
17345.265,0.00210795
17345.3,0.00451561
17345.3,0.0046396
17345.3,0.00536721
17345.3,0.0033366
17345.3,0.00213742
17345.3,0.00328537
17345.3,0.00214173
17345.3,0.00163371
17345.3,0.00305292
17345.3,0.00627039
17345.268,0.00442878
17345.3,0.00419753
17345.3,0.00362392
17345.3,0.00210023
17345.3,0.00324911
17345.3,0.00135246
17345.3,0.00309447
17345.3,-0.000298432
17345.3,0.00477256
17345.3,0.00156817
17345.3,0.00261578
17345.3,0.00246251
17345.3,0.00128273
17345.3,0.00166551
17345.3,0.0031145
17345.272,0.00217517
17345.3,0.00186307
17345.3,0.00270148
17345.3,0.00222496
17345.3,0.00309861
17345.3,0.00204906
17345.3,0.00199798
17345.3,0.0014092
17345.3,0.00203739
17345.3,0.00287821
17345.3,0.00160875
17345.3,0.00208122
17345.275,0.00345999
17345.3,0.00345923
17345.3,0.00278811
17345.276,0.00249454
17345.3,0.000772956
17345.3,0.00289398
17345.3,0.00217868
17345.277,0.00230757
17345.3,0.00154792
17345.3,0.00189225
17345.3,0.0031239
17345.278,0.00181081
17345.3,0.0024961
17345.3,0.0026863
17345.3,0.00164321
17345.3,0.00296919
17345.3,0.00273167